Folder: JLDP-report-analysis/data/raw

Note: README.md
# JLDP-report-analysis
data analysis for JLDP report

Isotope anayisis

Well water depth analysis

Watershed analysis (whole picture)

File: VuSitu_Log_2024-02-22_11-57-16_Full_pipe_Log_2024-02-22.csv
Date Time,Turbidity (NTU) (1097523),pH (pH) (687158),pH mV (mV) (687158),ORP (mV) (687158),Actual Conductivity (µS/cm) (699940),Specific Conductivity (µS/cm) (699940),Salinity (PSU) (699940),Resistivity (Ω⋅cm) (699940),Density (g/cm³) (699940),Total Dissolved Solids (ppt) (699940),Temperature (°C) (702575),External Voltage (V) (702575),Battery Capacity (%) (702575),Barometric Pressure (mm Hg) (702575),Pressure (psi) (692717),Depth (ft)
2/22/2024 11:57,113.626,8.496539,-85.21557,247.412,797.577,1014.12,0.5039695,1253.8,0.999663,0.6591751,13.8207,0.009,87,759.6451,0.151282,0.248806
2/26/2024 6:27,26.1459,8.477755,-83.51803,247.211,891.8212,1196.16,0.5964372,1121.3,1,0.777502,11.67917,0,86,754.027,0.173908,0.300506
3/1/2024 0:57,15.0114,8.471112,-83.54187,260.963,957.08,1240.23,0.6208006,1044.84,0.999857,0.806149,13.0469,0,85,757.215,0.117047,0.155061
3/4/2024 19:27,25.51724,8.484802,-84.35487,254.037,934.212,1206.99,0.6035734,1070.42,0.999828,0.7845411,13.1677,0,84,756.4948,0.11589,0.174325
3/8/2024 13:57,11.6687,8.476344,-84.3668,264.487,1013.31,1257.04,0.6311222,986.8607,0.9996133,0.8170768,14.8487,0,83,757.0723,0.05873108,0.03373839
3/12/2024 8:27,8.25814,8.484934,-84.19514,268.76,986.8988,1293.17,0.648002,1013.28,0.9999343,0.8405595,12.6002,0,82,758.7075,0.0997391,0.126847
3/16/2024 2:57,5.977362,8.476189,-83.28676,268.204,943.971,1282.11,0.6405794,1059.355,1.00009,0.8333707,11.1918,0,81,753.585,0.1275816,0.210378
3/19/2024 21:27,6.5019,8.451035,-82.6025,269.9852,1006.99,1282.76,0.6436849,993.0583,0.999782,0.8337955,13.7443,0,81,754.3646,0.0972681,0.1326562
3/23/2024 15:57,5.69699,8.502232,-85.7568,190.0339,1055.97,1319.33,0.6635542,946.995,0.9996829,0.857565,14.5489,0,80,751.1769,0.06334591,0.0448912
3/27/2024 10:27,5.6085,8.487794,-84.48601,251.0214,1026.78,1330.9,0.6682151,973.9186,0.9998952,0.865088,13.0361,0,79,759.2325,0.0751209,0.07605692
3/31/2024 4:57,133.714,8.494891,-84.62429,282.831,751.924,996.6617,0.493695,1329.92,0.999869,0.6478301,12.1436,0,78,746.564,0.157182,0.267621
4/3/2024 23:27,73.38784,8.509916,-85.8665,296.6714,958.973,1230.39,0.6160368,1042.78,0.9998002,0.7997511,13.4507,0,77,753.9221,0.111199,0.164298
4/7/2024 17:57,789.266,8.512205,-85.8951,293.071,977.5314,1264.684,0.6336362,1022.99,0.999858,0.8220446,13.1123,0,76,755.1672,0.07829,0.0723414
4/11/2024 12:27,3.87516,8.505545,-86.29322,231.295,1072.49,1303.8,0.6562676,932.408,0.999499,0.8474697,15.7115,0,75,751.8294,0.03676033,-0.01515711
4/15/2024 6:57,486.764,8.535312,-86.9751,263.929,867.5913,1144.02,0.570056,1152.62,0.9999042,0.7436133,12.3492,0,74,757.8599,0.128121,0.183566
4/19/2024 1:27,961.023,8.510267,-86.03812,222.5256,961.5701,1218.6,0.6103178,1039.97,0.999727,0.7920903,13.9569,0,73,753.607,0.0969982,0.10842
4/22/2024 19:57,825.9669,8.517905,-86.52687,201.108,1018.21,1284.84,0.645116,982.1163,0.999728,0.8351457,14.1351,0,72,752.759,0.0769815,0.0969953
4/26/2024 14:27,574.9929,8.51606,-86.8011,260.756,1065.53,1304.887,0.65662,938.503,0.9995488,0.848177,15.3962,0,72,754.32,0.02985859,-0.0360803
4/30/2024 8:57,294.33,8.503901,-85.41107,191.343,1018.92,1319.57,0.662312,981.4328,0.999886,0.85772,13.0712,0,71,752.3695,0.0856218,0.104079
5/4/2024 3:27,216.076,8.500608,-85.22749,263.0639,1024.18,1326.01,0.665697,976.394,0.9998872,0.861905,13.0825,0,70,751.7244,0.0835094,0.106577
5/7/2024 21:57,100.14,8.499609,-85.22034,261.316,1032.94,1331.87,0.66894,968.106,0.999868,0.8657158,13.2492,0,69,752.0169,0.070714,0.05045747
5/11/2024 16:27,99.00149,8.4774,-84.62906,259.976,1096.46,1338.34,0.6743075,912.028,0.9995402,0.869919,15.5376,0,68,751.267,0.0144901,-0.07977742
5/15/2024 10:57,80.4857,8.504772,-85.71625,259.5353,1052.98,1335.39,0.6714439,949.687,0.999778,0.868005,13.92753,0,67,753.292,0.04767227,-0.001428651
5/19/2024 5:28,87.77,8.491961,-84.9247,264.8592,1025.35,1306.964,0.656339,975.275,0.9997952,0.8495266,13.7188,0,66,755.7898,0.06576824,0.0688341
5/22/2024 23:58,108.253,8.496734,-85.27756,266.366,1053.71,1334.23,0.6708923,949.0315,0.9997686,0.8672494,13.99206,0,65,753.877,0.04954624,0.002212478
5/26/2024 18:28,7.482048,8.486057,-84.86986,266.962,1074.73,1338.818,0.673893,930.469,0.9996727,0.870232,14.6724,0,64,755.2947,0.0239725,-0.05931018
5/30/2024 12:58,8.324996,8.488985,-85.2108,262.678,1085.67,1333.79,0.671713,921.087,0.999582,0.8669643,15.2605,0,63,753.84,0.003661156,-0.138221
6/3/2024 7:28,5.90135,8.4899,-84.77211,265.7032,1018.01,1301.38,0.6533036,982.311,0.999809,0.8458986,13.5995,0,62,752.4745,0.0587349,0.05013881
6/7/2024 1:58,4.826964,8.477896,-84.35249,260.8919,1065.476,1332.83,0.670603,938.548,0.9996959,0.866342,14.4977,0,61,751.0268,0.05969429,0.0536568
6/10/2024 20:28,4.317371,8.476663,-84.59329,261.8313,821.2242,1001.87,0.4986583,1217.69,0.9994012,0.6512166,15.5597,0,60,752.3395,0.0208569,-0.0385545
6/14/2024 14:58,4.272885,8.474283,-84.95331,257.139,1022.87,1200.413,0.6028903,977.646,0.9991961,0.780268,17.2562,0,59,752.092,-0.000247002,-0.107573
6/18/2024 9:28,3.21292,8.47057,-83.88757,259.857,857.411,1076.68,0.53672,1166.3,0.9996155,0.699844,14.3374,0,58,749.407,0.0455112,-0.0116386
6/22/2024 3:58,162.103,8.488449,-84.71727,261.836,810.5256,1033.78,0.514049,1233.77,0.999688,0.671958,13.6932,0,57,749.3768,0.0753479,0.0886425
6/25/2024 22:28,3.6722,8.451708,-83.51326,182.116,689.7657,818.3559,0.404581,1449.77,0.999128,0.531931,16.7732,0,56,753.862,0.0328989,-0.0231352
6/29/2024 16:58,4.865734,8.468006,-84.2857,123.091,883.401,1061.73,0.530027,1131.989,0.9993205,0.6901245,16.20623,0,55,751.994,0.03937435,-0.0128851
7/3/2024 11:28,5.851172,8.451443,-83.3845,124.626,1062.81,1272.31,0.640143,940.9059,0.9993765,0.826999,16.379,0,54,752.5345,0.02111435,-0.06103247
7/7/2024 5:58,4.07619,8.456808,-83.37259,83.30583,1080.37,1326.94,0.6681161,925.61,0.9995773,0.862508,15.2714,0,53,752.992,0.0624332,0.03845217
7/11/2024 0:28,3.12459,8.454436,-83.51088,63.7746,933.561,1121.64,0.561217,1071.17,0.999342,0.7290638,16.221,0,52,750.6743,0.0476704,0.003916309
7/14/2024 18:58,2.99002,8.462739,-84.10454,38.62858,1106.72,1317.5,0.664045,903.572,0.999353,0.856372,16.6239,0,51,755.1447,0.02389431,-0.0671996
7/18/2024 13:28,5.10104,8.461599,-84.34296,23.6821,1118.91,1301.008,0.6559151,893.725,0.9991618,0.845655,17.67199,0,50,754.687,-0.008468628,-0.120497
7/22/2024 7:58,4.79179,8.48629,-85.00815,7.004738,1054.49,1300.49,0.6540916,948.327,0.9995934,0.845318,15.0963,0,49,751.8444,0.0595522,0.0355247
7/26/2024 2:28,167.214,8.474415,-84.8341,17.7789,1126.9,1335.48,0.6736286,887.3896,0.999326,0.8680599,16.823,0,48,752.7895,0.0331297,-0.03259626
7/29/2024 20:58,38.2526,8.480912,-85.0296,7.31945,1078.61,1296.05,0.6525207,927.1211,0.9994132,0.8424331,16.21604,0,47,754.065,0.027729,-0.0390841
8/2/2024 15:28,125.95,8.458851,-84.47647,11.5347,1137.02,1293.09,0.6521685,879.4898,0.998969,0.8405084,18.681,0,46,754.1396,-0.01021,-0.1349395
8/6/2024 9:58,148.627,8.478665,-84.9891,-4.837513,1108.29,1322.57,0.6666532,902.287,0.9993735,0.8596708,16.5176,0,45,753.87,0.0189867,-0.05368646
8/10/2024 4:28,39.6962,8.50061,-85.92844,-15.9383,1061.65,1298.91,0.6535114,941.933,0.99954,0.8442947,15.4363,0,44,751.9719,0.0504322,0.005598239
8/13/2024 22:58,91.0263,8.50227,-86.205,-23.48423,1101.611,1328.93,0.6697027,907.7615,0.9994549,0.863802,16.0444,0,43,753.187,0.0377474,-0.0225271
8/17/2024 17:28,27.7445,8.48134,-85.44445,-19.1927,1131.04,1318.85,0.6652526,884.145,0.999192,0.857255,17.544,0.009,42,753.277,-0.000188828,-0.109503
8/21/2024 11:58,24.0059,8.480519,-85.50644,-27.3848,756.4285,874.794,0.43392,1322.002,0.998947,0.568616,17.9159,0,41,753.9521,-0.0107841,-0.140365
8/25/2024 6:28,12.299,8.50707,-86.3719,-31.7025,1063.08,1293.23,0.650695,940.665,0.9994989,0.8405995,15.68236,0,40,756.24,0.0385933,-0.0159429
8/29/2024 0:58,5.793032,8.507055,-86.40051,-27.9474,1057.559,1283.58,0.645695,945.5737,0.999479,0.8343301,15.7807,0,39,754.1021,0.0324392,-0.0276617
9/1/2024 19:28,185.805,8.494207,-86.1621,-24.6334,813.0401,949.8074,0.472502,1229.95,0.999059,0.6173748,17.461,0,38,752.002,0.005612373,-0.08694183
9/5/2024 13:58,216.747,8.45568,-84.7435,-21.8964,533.7669,587.1321,0.2874367,1873.48,0.998376,0.381636,20.2413,0,37,751.792,-0.0278273,-0.1673755
9/9/2024 8:28,22.7367,8.508191,-86.82251,-31.1375,1093.85,1291.916,0.650781,914.202,0.999283,0.8397454,16.9732,0,36,752.1144,0.0364532,-0.01362
9/13/2024 2:58,8.002895,8.529861,-87.57829,-45.9743,1034.02,1267.57,0.6370026,967.0988,0.9995404,0.82392,15.3535,0,35,749.099,0.0690365,0.0580748
9/16/2024 21:28,30.9287,8.51542,-86.80582,-43.8571,1036.03,1264.69,0.6356183,965.221,0.999511,0.822051,15.5338,0,34,753.7495,0.0335073,-0.0142284
9/20/2024 15:58,12.4403,8.5361,-88.4128,-46.53454,1085.72,1283.87,0.646521,921.05,0.999289,0.8345151,16.9194,0,33,751.874,0.002346039,-0.0833086
9/24/2024 10:28,9.716332,8.534443,-87.87393,-44.78693,1050.16,1284.06,0.6457302,952.2355,0.9995299,0.8346385,15.463,0,32,751.7319,0.0230341,-0.0413671
9/28/2024 4:58,10.8869,8.55397,-88.72986,-53.86114,1003.54,1251.91,0.628257,996.474,0.999646,0.8137418,14.61287,0,31,751.3043,0.05165,0.03708873
10/1/2024 23:28,22.2319,8.535639,-88.0003,-48.8567,773.295,941.3532,0.4674243,1293.167,0.9993622,0.6118796,15.653,0,30,751.7769,0.0226507,-0.035016
10/5/2024 17:58,472.183,8.525938,-87.84532,-49.9916,888.815,1049.66,0.5240974,1125.09,0.9991846,0.6822793,16.9772,0,29,753.0145,-0.004757881,-0.100657
10/9/2024 12:28,6.602524,8.540967,-88.66787,-44.62719,1069.288,1266.78,0.6374969,935.2018,0.9992961,0.823407,16.8377,0,28,753.36,-0.009568214,-0.111759
10/13/2024 6:58,6.63883,8.577227,-90.16991,-51.5103,1031.37,1275.76,0.641024,969.5816,0.999603,0.829246,14.9705,0,27,755.6472,0.02833271,-0.0285327
10/17/2024 1:28,17.5036,8.578452,-90.1747,-49.40033,1035.3,1286.95,0.6467345,965.906,0.9996383,0.83652,14.7621,0,26,752.384,0.03565979,-0.009760633
10/20/2024 19:58,271.759,8.580541,-89.76698,-46.01717,990.2351,1282.09,0.6427071,1009.86,0.9998695,0.83336,13.0816,0,25,757.6499,0.02929306,-0.0230643
10/24/2024 14:28,3.8682,8.571378,-89.9386,-52.1541,1049.43,1288.032,0.647702,952.901,0.9995568,0.8372208,15.3012,0,23,752.137,-0.0178223,-0.130324
10/28/2024 8:58,11.7291,8.595531,-91.04252,-60.6203,901.445,1129.71,0.56433,1109.33,0.9996247,0.7343084,14.4213,0,22,755.4972,0.002673149,-0.08112845
11/1/2024 3:28,598.0224,8.610946,-91.15935,-50.6258,209.098,277.9181,0.132511,4782.455,0.999599,0.180647,12.0352,0,21,754.905,0.04648781,0.01663226
11/4/2024 21:58,7.91817,8.607888,-91.09735,-66.3495,939.65,1237.98,0.618962,1064.23,0.9999382,0.8046869,12.3832,0,20,756.96,0.03420925,-0.0112411
2/4/2025 11:20,404.4717,8.712038,-96.96245,-7.317066,108.09,142.785,0.067152,9251.573,0.99952,0.09281012,12.2781,17.183,20,754.125,-0.0272732,-0.171994
,,,,,,,,,,,,,,,,
Log Notes,,,,,,,,,,,,,,,,
2024-02-22 11:57:16 Started,,,,,,,,,,,,,,,,
2024-11-05 11:59:15 Hardware Reset,,,,,,,,,,,,,,,,
2024-11-05 11:59:38 Hardware Reset,,,,,,,,,,,,,,,,
2024-11-05 12:00:00 Hardware Reset,,,,,,,,,,,,,,,,
2024-11-05 12:00:21 Hardware Reset,,,,,,,,,,,,,,,,
2024-11-05 12:00:42 Hardware Reset,,,,,,,,,,,,,,,,
2024-11-05 12:01:04 Hardware Reset,,,,,,,,,,,,,,,,
2024-11-05 12:01:25 Hardware Reset,,,,,,,,,,,,,,,,
2024-11-05 12:01:47 Hardware Reset,,,,,,,,,,,,,,,,
2024-11-05 12:02:08 Hardware Reset,,,,,,,,,,,,,,,,
2024-11-05 12:02:30 Hardware Reset,,,,,,,,,,,,,,,,
2024-11-05 12:02:51 Hardware Reset,,,,,,,,,,,,,,,,
2024-11-05 12:03:13 Hardware Reset,,,,,,,,,,,,,,,,
2024-11-05 12:03:34 Hardware Reset,,,,,,,,,,,,,,,,
2024-11-05 12:03:55 Hardware Reset,,,,,,,,,,,,,,,,
2024-11-05 12:04:17 Hardware Reset,,,,,,,,,,,,,,,,
2024-11-05 12:04:38 Hardware Reset,,,,,,,,,,,,,,,,
2024-11-05 12:05:00 Hardware Reset,,,,,,,,,,,,,,,,
2024-11-05 12:05:21 Hardware Reset,,,,,,,,,,,,,,,,
2024-11-05 12:05:43 Hardware Reset,,,,,,,,,,,,,,,,
2024-11-05 12:06:04 Hardware Reset,,,,,,,,,,,,,,,,
2024-11-05 12:06:25 Hardware Reset,,,,,,,,,,,,,,,,
2024-11-05 12:06:47 Hardware Reset,,,,,,,,,,,,,,,,
2024-11-05 12:07:08 Hardware Reset,,,,,,,,,,,,,,,,
2024-11-05 12:07:30 Hardware Reset,,,,,,,,,,,,,,,,
2024-11-05 12:07:51 Hardware Reset,,,,,,,,,,,,,,,,
2024-11-05 12:08:12 Hardware Reset,,,,,,,,,,,,,,,,
2024-11-05 12:08:34 Hardware Reset,,,,,,,,,,,,,,,,
2024-11-05 12:08:55 Hardware Reset,,,,,,,,,,,,,,,,
2024-11-05 12:09:17 Hardware Reset,,,,,,,,,,,,,,,,
2024-11-05 12:09:38 Hardware Reset,,,,,,,,,,,,,,,,
2024-11-05 12:10:00 Hardware Reset,,,,,,,,,,,,,,,,
2024-11-05 12:10:21 Hardware Reset,,,,,,,,,,,,,,,,
2024-11-05 12:10:42 Hardware Reset,,,,,,,,,,,,,,,,
2024-11-05 12:11:03 Hardware Reset,,,,,,,,,,,,,,,,
2024-11-05 12:11:25 Hardware Reset,,,,,,,,,,,,,,,,
2024-11-05 12:11:46 Hardware Reset,,,,,,,,,,,,,,,,
2024-11-05 12:12:07 Hardware Reset,,,,,,,,,,,,,,,,
2024-11-05 12:12:28 Hardware Reset,,,,,,,,,,,,,,,,
2024-11-05 12:12:49 Hardware Reset,,,,,,,,,,,,,,,,
2024-11-05 12:13:10 Hardware Reset,,,,,,,,,,,,,,,,
2024-11-05 12:13:31 Hardware Reset,,,,,,,,,,,,,,,,
2024-11-05 12:13:53 Hardware Reset,,,,,,,,,,,,,,,,
2024-11-05 12:14:14 Hardware Reset,,,,,,,,,,,,,,,,
2024-11-05 12:14:35 Hardware Reset,,,,,,,,,,,,,,,,
2024-11-05 12:14:56 Hardware Reset,,,,,,,,,,,,,,,,
2024-11-05 12:15:17 Hardware Reset,,,,,,,,,,,,,,,,
2024-11-05 12:15:38 Hardware Reset,,,,,,,,,,,,,,,,
2024-11-05 12:15:59 Hardware Reset,,,,,,,,,,,,,,,,
2024-11-05 12:16:21 Hardware Reset,,,,,,,,,,,,,,,,
2024-11-05 12:16:42 Hardware Reset,,,,,,,,,,,,,,,,
2024-11-05 12:17:03 Hardware Reset,,,,,,,,,,,,,,,,
2024-11-05 12:17:24 Hardware Reset,,,,,,,,,,,,,,,,
2024-11-05 12:17:45 Hardware Reset,,,,,,,,,,,,,,,,
2024-11-05 12:18:06 Hardware Reset,,,,,,,,,,,,,,,,
2024-11-05 12:18:28 Hardware Reset,,,,,,,,,,,,,,,,
2024-11-05 12:18:49 Hardware Reset,,,,,,,,,,,,,,,,
2024-11-05 12:19:10 Hardware Reset,,,,,,,,,,,,,,,,
2024-11-05 12:19:31 Hardware Reset,,,,,,,,,,,,,,,,
2024-11-05 12:19:52 Hardware Reset,,,,,,,,,,,,,,,,
2024-11-05 12:20:13 Hardware Reset,,,,,,,,,,,,,,,,
2024-11-05 12:20:35 Hardware Reset,,,,,,,,,,,,,,,,
2024-11-05 12:20:56 Hardware Reset,,,,,,,,,,,,,,,,
2024-11-05 12:21:17 Hardware Reset,,,,,,,,,,,,,,,,
2024-11-05 12:21:38 Hardware Reset,,,,,,,,,,,,,,,,
2024-11-05 12:21:59 Hardware Reset,,,,,,,,,,,,,,,,
2024-11-05 12:22:21 Hardware Reset,,,,,,,,,,,,,,,,
2024-11-05 12:22:42 Hardware Reset,,,,,,,,,,,,,,,,
2024-11-05 12:23:03 Hardware Reset,,,,,,,,,,,,,,,,
2024-11-05 12:23:24 Hardware Reset,,,,,,,,,,,,,,,,
2024-11-05 12:23:45 Hardware Reset,,,,,,,,,,,,,,,,
2024-11-05 12:24:06 Hardware Reset,,,,,,,,,,,,,,,,
2024-11-05 12:24:28 Hardware Reset,,,,,,,,,,,,,,,,
2024-11-05 12:24:49 Hardware Reset,,,,,,,,,,,,,,,,
2024-11-05 12:25:10 Hardware Reset,,,,,,,,,,,,,,,,
2024-11-05 12:25:31 Hardware Reset,,,,,,,,,,,,,,,,
2024-11-05 12:25:52 Hardware Reset,,,,,,,,,,,,,,,,
2024-11-05 12:26:14 Hardware Reset,,,,,,,,,,,,,,,,
2024-11-05 12:26:35 Hardware Reset,,,,,,,,,,,,,,,,
2024-11-05 12:26:56 Hardware Reset,,,,,,,,,,,,,,,,
2024-11-05 12:27:17 Hardware Reset,,,,,,,,,,,,,,,,
2024-11-05 12:27:38 Hardware Reset,,,,,,,,,,,,,,,,
2024-11-05 12:28:00 Hardware Reset,,,,,,,,,,,,,,,,
2024-11-05 12:28:21 Hardware Reset,,,,,,,,,,,,,,,,
2024-11-05 12:28:42 Hardware Reset,,,,,,,,,,,,,,,,
2024-11-05 12:29:03 Hardware Reset,,,,,,,,,,,,,,,,
2024-11-05 12:29:24 Hardware Reset,,,,,,,,,,,,,,,,
2024-11-05 12:29:46 Hardware Reset,,,,,,,,,,,,,,,,
2024-11-05 12:30:07 Hardware Reset,,,,,,,,,,,,,,,,
2024-11-05 12:30:28 Hardware Reset,,,,,,,,,,,,,,,,
2024-11-05 12:30:49 Hardware Reset,,,,,,,,,,,,,,,,
2024-11-05 12:31:10 Hardware Reset,,,,,,,,,,,,,,,,
2024-11-05 12:31:32 Hardware Reset,,,,,,,,,,,,,,,,
2024-11-05 12:31:53 Hardware Reset,,,,,,,,,,,,,,,,
2024-11-05 12:32:14 Hardware Reset,,,,,,,,,,,,,,,,
2024-11-05 12:32:35 Hardware Reset,,,,,,,,,,,,,,,,
2024-11-05 12:32:56 Hardware Reset,,,,,,,,,,,,,,,,
2024-11-05 12:33:18 Hardware Reset,,,,,,,,,,,,,,,,
2024-11-05 12:33:39 Hardware Reset,,,,,,,,,,,,,,,,
2024-11-05 12:34:00 Hardware Reset,,,,,,,,,,,,,,,,
2024-11-05 12:34:21 Hardware Reset,,,,,,,,,,,,,,,,
2024-11-05 12:34:43 Hardware Reset,,,,,,,,,,,,,,,,
2024-11-05 12:35:04 Hardware Reset,,,,,,,,,,,,,,,,
2024-11-05 12:35:25 Hardware Reset,,,,,,,,,,,,,,,,
2024-11-05 12:35:46 Hardware Reset,,,,,,,,,,,,,,,,
2024-11-05 12:36:07 Hardware Reset,,,,,,,,,,,,,,,,
2024-11-05 12:36:29 Hardware Reset,,,,,,,,,,,,,,,,
2024-11-05 12:36:50 Hardware Reset,,,,,,,,,,,,,,,,
2024-11-05 12:37:11 Hardware Reset,,,,,,,,,,,,,,,,
2024-11-05 12:37:32 Hardware Reset,,,,,,,,,,,,,,,,
2024-11-05 12:37:54 Hardware Reset,,,,,,,,,,,,,,,,
2024-11-05 12:38:15 Hardware Reset,,,,,,,,,,,,,,,,
2024-11-05 12:38:36 Hardware Reset,,,,,,,,,,,,,,,,
2024-11-05 12:38:57 Hardware Reset,,,,,,,,,,,,,,,,
2024-11-05 12:39:19 Hardware Reset,,,,,,,,,,,,,,,,
2024-11-05 12:39:40 Hardware Reset,,,,,,,,,,,,,,,,
2024-11-05 12:40:01 Hardware Reset,,,,,,,,,,,,,,,,
2024-11-05 12:40:22 Hardware Reset,,,,,,,,,,,,,,,,
2024-11-05 12:40:44 Hardware Reset,,,,,,,,,,,,,,,,
2024-11-05 12:41:05 Hardware Reset,,,,,,,,,,,,,,,,
2024-11-05 12:41:26 Hardware Reset,,,,,,,,,,,,,,,,
2024-11-05 12:41:47 Hardware Reset,,,,,,,,,,,,,,,,
2024-11-05 12:42:08 Hardware Reset,,,,,,,,,,,,,,,,
2024-11-05 12:42:30 Hardware Reset,,,,,,,,,,,,,,,,
2024-11-05 12:42:51 Hardware Reset,,,,,,,,,,,,,,,,
2024-11-05 12:43:12 Hardware Reset,,,,,,,,,,,,,,,,
2024-11-05 12:43:33 Hardware Reset,,,,,,,,,,,,,,,,
2024-11-05 12:43:55 Hardware Reset,,,,,,,,,,,,,,,,
2024-11-05 12:44:16 Hardware Reset,,,,,,,,,,,,,,,,
2024-11-05 12:44:37 Hardware Reset,,,,,,,,,,,,,,,,
2024-11-05 12:44:59 Hardware Reset,,,,,,,,,,,,,,,,
2024-11-05 12:45:20 Hardware Reset,,,,,,,,,,,,,,,,
2024-11-05 12:45:41 Hardware Reset,,,,,,,,,,,,,,,,
2024-11-05 12:46:02 Hardware Reset,,,,,,,,,,,,,,,,
2024-11-05 12:46:24 Hardware Reset,,,,,,,,,,,,,,,,
2024-11-05 12:46:45 Hardware Reset,,,,,,,,,,,,,,,,
2024-11-05 12:47:06 Hardware Reset,,,,,,,,,,,,,,,,
2024-11-05 12:47:27 Hardware Reset,,,,,,,,,,,,,,,,
2024-11-05 12:47:49 Hardware Reset,,,,,,,,,,,,,,,,
2024-11-05 12:48:10 Hardware Reset,,,,,,,,,,,,,,,,
2024-11-05 12:48:31 Hardware Reset,,,,,,,,,,,,,,,,
2024-11-05 12:48:52 Hardware Reset,,,,,,,,,,,,,,,,
2024-11-05 12:49:14 Hardware Reset,,,,,,,,,,,,,,,,
2024-11-05 12:49:35 Hardware Reset,,,,,,,,,,,,,,,,
2024-11-05 12:49:56 Hardware Reset,,,,,,,,,,,,,,,,
2024-11-05 12:50:17 Hardware Reset,,,,,,,,,,,,,,,,
2024-11-05 12:50:39 Hardware Reset,,,,,,,,,,,,,,,,
2024-11-05 12:51:00 Hardware Reset,,,,,,,,,,,,,,,,
2024-11-05 12:51:21 Hardware Reset,,,,,,,,,,,,,,,,
2024-11-05 12:51:43 Hardware Reset,,,,,,,,,,,,,,,,
2024-11-05 12:52:04 Hardware Reset,,,,,,,,,,,,,,,,
2024-11-05 12:52:25 Hardware Reset,,,,,,,,,,,,,,,,
2024-11-05 12:52:46 Hardware Reset,,,,,,,,,,,,,,,,
2024-11-05 12:53:08 Hardware Reset,,,,,,,,,,,,,,,,
2024-11-05 12:53:29 Hardware Reset,,,,,,,,,,,,,,,,
2024-11-05 12:53:50 Hardware Reset,,,,,,,,,,,,,,,,
2024-11-05 12:54:12 Hardware Reset,,,,,,,,,,,,,,,,
2024-11-05 12:54:33 Hardware Reset,,,,,,,,,,,,,,,,
2024-11-05 12:54:54 Hardware Reset,,,,,,,,,,,,,,,,
2024-11-05 12:55:15 Hardware Reset,,,,,,,,,,,,,,,,
2024-11-05 12:55:37 Hardware Reset,,,,,,,,,,,,,,,,
2024-11-05 12:55:58 Hardware Reset,,,,,,,,,,,,,,,,
2024-11-05 12:56:19 Hardware Reset,,,,,,,,,,,,,,,,
2024-11-05 12:56:41 Hardware Reset,,,,,,,,,,,,,,,,
2024-11-05 12:57:02 Hardware Reset,,,,,,,,,,,,,,,,
2024-11-05 12:57:23 Hardware Reset,,,,,,,,,,,,,,,,
2024-11-05 12:57:45 Hardware Reset,,,,,,,,,,,,,,,,
2024-11-05 12:58:06 Hardware Reset,,,,,,,,,,,,,,,,
2024-11-05 12:58:27 Hardware Reset,,,,,,,,,,,,,,,,
2024-11-05 12:58:48 Hardware Reset,,,,,,,,,,,,,,,,
2024-11-05 12:59:10 Hardware Reset,,,,,,,,,,,,,,,,
2024-11-05 12:59:31 Hardware Reset,,,,,,,,,,,,,,,,
2024-11-05 13:00:11 Hardware Reset,,,,,,,,,,,,,,,,
2024-11-05 13:00:40 Hardware Reset,,,,,,,,,,,,,,,,
2024-11-05 13:01:09 Hardware Reset,,,,,,,,,,,,,,,,
2024-11-05 13:01:37 Hardware Reset,,,,,,,,,,,,,,,,
2025-02-04 11:20:03 Hardware Reset,,,,,,,,,,,,,,,,